Folder: polypropylene_tensile_analysis/Resources

Note: README.md
# polypropylene_tensile_analysis
Bootcamp Final Project

## Overview

An extrusion company creates a crosslinked blend of polypropylene and polyethylene using a water-activated catalyst. The cure process takes 10 days, and consists of taking moistened extrudate and placing it in an industrial oven for a period of 10 days. The degree of crosslinking is determined by evaluating the tensile strength and elongation of a material sample. QA acceptance criteria is based on the tensile and elongation results after the curing process.

The tensile and elongation results tend to have considerable variation. This analysis is to use supervised machine learning to identify contributing features, and identify high-risk scenarios for quality failures.

Some factors being examined include the processing equipment, conditions, and operators, the weather conditions for the cure period (the ovens are exposed to the environment), the month of production, and the test results prior to moisture curing.

##

File: clean_tensile.csv
date_code,thickness,amb_tensile_pre_cure,amb_elongation_pre_cure,amb_tensile_post_cure,amb_elongation_post_cure,hot_tensile_start,hot_elongation_start,hot_tensile_end,hot_elongation_end,amb_elongation_result,amb_tensile_result,hot_tensile_result,hot_elongation_result,overall_result
17-B-1045,65.0,23.9,610.0,26.7,431.0,6.1,130.0,7.6,135.0,1,1,1,1,1
17-B-1061,117.0,19.6,543.0,22.6,530.0,11.9,175.0,8.4,182.0,1,0,1,1,0
17-B-1080,117.0,20.8,359.0,22.7,460.0,12.5,212.0,12.1,236.0,1,0,1,1,0
17-B-1097,117.0,20.1,497.0,22.5,447.0,8.1,177.0,7.4,155.0,1,0,1,1,0
17-B-1113,117.0,21.5,381.0,24.2,476.0,7.6,133.0,10.1,170.0,1,1,1,1,1
17-B-1196,65.0,23.9,683.0,34.1,552.0,7.4,134.0,7.7,135.0,1,1,1,1,1
17-B-1213,65.0,25.4,780.0,32.6,593.0,9.6,130.0,8.7,124.0,1,1,1,1,1
17-B-1229,117.0,20.2,452.0,22.8,483.0,14.7,208.0,8.1,237.0,1,0,1,1,0
17-B-1245,117.0,20.4,619.0,22.8,593.0,7.0,153.0,4.2,386.0,1,0,0,1,0
17-B-1267,117.0,21.3,437.0,23.4,419.0,11.0,189.0,6.9,214.0,1,0,1,1,0
17-B-1383,65.0,25.1,871.0,32.1,539.0,6.1,161.0,6.1,167.0,1,1,1,1,1
17-B-1399,65.0,24.8,602.0,32.1,488.0,7.5,157.0,6.4,176.0,1,1,1,1,1
17-B-1415,65.0,27.0,727.0,25.3,482.0,9.0,206.0,11.2,173.0,1,1,1,1,1
17-B-1431,117.0,19.9,476.0,24.6,490.0,8.2,218.0,7.1,227.0,1,1,1,1,1
17-B-1447,117.0,20.8,331.0,25.4,466.0,6.8,209.0,5.4,234.0,1,1,0,1,0
17-B-1465,117.0,20.5,524.0,25.9,486.0,4.8,229.0,6.6,194.0,1,1,0,1,0
17-B-1572,117.0,20.4,683.0,25.3,510.0,6.7,199.0,6.2,149.0,1,1,1,1,1
17-B-1588,117.0,19.5,366.0,25.8,529.0,5.2,264.0,9.7,217.0,1,1,0,1,0
17-B-1604,117.0,20.9,444.0,23.8,482.0,5.0,239.0,7.0,220.0,1,0,0,1,0
17-B-1622,117.0,22.7,420.0,24.3,452.0,4.1,292.0,3.5,299.0,1,1,0,1,0
17-B-1638,65.0,24.9,637.0,26.1,442.0,7.7,166.0,9.4,174.0,1,1,1,1,1
17-B-1654,45.0,34.0,744.0,35.7,606.0,10.7,170.0,11.7,100.0,1,1,1,0,0
17-B-1768,65.0,22.1,541.0,33.7,523.0,7.2,131.0,9.9,142.0,1,1,1,1,1
17-B-1784,65.0,27.9,728.0,28.1,504.0,15.8,132.0,11.1,128.9,1,1,1,1,1
17-B-1833,65.0,26.1,692.0,29.4,488.0,14.0,139.0,11.6,138.8,1,1,1,1,1
17-B-1849,65.0,25.4,935.0,29.5,671.0,13.4,146.0,12.1,164.0,1,1,1,1,1
17-B-1883,117.0,20.9,405.0,25.6,441.0,9.3,197.0,6.7,263.0,1,1,1,1,1
17-B-1900,117.0,21.4,296.0,26.3,426.0,6.6,189.0,6.3,136.0,1,1,1,1,1
17-B-1918,117.0,20.3,609.0,25.0,447.0,6.5,182.0,10.6,211.0,1,1,1,1,1
17-B-1934,117.0,20.8,421.0,23.7,510.0,6.3,227.0,7.4,199.0,1,0,1,1,0
17-B-2141,65.0,25.5,637.0,26.1,549.0,7.3,161.0,8.6,180.0,1,1,1,1,1
17-B-2195,117.0,21.1,505.0,24.3,445.0,5.8,213.0,4.9,176.0,1,1,0,1,0
17-B-2211,117.0,20.7,453.0,24.4,524.0,5.0,182.0,5.3,169.0,1,1,0,1,0
17-B-2227,117.0,19.75,500.0,23.0,492.0,6.1,214.0,5.3,165.0,1,0,0,1,0
17-B-2243,117.0,20.1,412.0,23.1,420.0,5.4,220.0,4.9,245.0,1,0,0,1,0
17-B-2269,45.0,33.5,754.0,40.0,586.0,15.3,128.0,17.2,125.0,1,1,0,1,0
17-B-2285,65.0,26.3,639.0,33.8,762.0,12.6,132.9,12.0,155.0,1,1,1,1,1
17-B-2385,117.0,20.2,302.0,26.0,476.0,9.3,239.0,9.3,242.0,1,1,1,1,1
17-B-2401,117.0,21.1,403.0,24.2,669.0,9.4,184.0,8.1,166.0,1,1,1,1,1
17-B-2417,117.0,20.5,422.0,25.0,427.0,8.8,204.0,8.4,224.0,1,1,1,1,1
17-B-2433,117.0,21.6,538.0,23.9,451.0,4.2,350.0,4.6,234.0,1,0,0,1,0
17-B-2449,45.0,34.0,843.0,34.9,534.0,18.8,138.0,18.9,130.0,1,1,0,1,0
17-B-2519,117.0,22.5,532.0,24.3,492.0,7.0,225.0,8.8,237.0,1,1,1,1,1
17-B-2535,117.0,20.4,306.0,23.4,464.0,10.3,212.0,7.1,210.0,1,0,1,1,0
17-B-2551,117.0,19.4,460.0,24.3,424.0,7.1,222.0,4.2,265.0,1,1,0,1,0
17-B-2567,117.0,21.3,478.0,24.6,489.0,4.5,232.0,6.4,189.0,1,1,0,1,0
17-B-2583,72.0,29.6,736.0,27.4,456.0,6.9,216.0,15.5,134.0,1,1,1,1,1
17-B-2599,65.0,26.3,825.0,33.5,574.0,9.7,149.0,6.2,152.0,1,1,1,1,1
17-B-2810,117.0,20.4,317.0,22.7,576.0,4.1,251.0,7.3,211.0,1,0,0,1,0
17-B-2826,117.0,20.9,390.0,25.3,430.0,9.0,223.0,8.2,196.0,1,1,1,1,1
17-B-2842,117.0,21.8,481.0,21.8,502.0,4.5,188.0,7.6,196.0,1,0,0,1,0
17-B-2858,117.0,22.7,419.0,23.1,376.0,7.9,201.0,9.4,206.0,1,0,1,1,0
17-B-2874,72.0,24.3,557.0,27.2,431.0,9.4,153.0,6.7,187.0,1,1,1,1,1
17-B-2890,65.0,32.4,757.0,31.6,508.0,12.3,154.0,8.1,171.0,1,1,1,1,1
17-B-2973,117.0,20.8,437.0,23.5,466.0,4.6,234.0,4.8,293.0,1,0,0,1,0
17-B-2989,117.0,21.7,578.0,25.9,506.0,5.8,230.0,6.2,228.0,1,1,0,1,0
17-B-3005,117.0,21.4,396.0,25.9,488.0,6.5,232.0,7.8,216.0,1,1,1,1,1
17-B-3021,117.0,21.4,482.0,24.7,427.0,6.1,236.0,6.2,199.0,1,1,1,1,1
17-B-3037,117.0,20.9,603.0,24.9,495.0,5.8,261.0,8.2,230.0,1,1,0,1,0
18-B-20,117.0,22.2,275.0,25.0,471.0,7.0,210.0,5.4,220.0,1,1,0,1,0
18-B-36,117.0,20.7,270.0,19.1,236.0,5.5,232.0,5.4,214.0,0,0,0,1,0
18-B-52,72.0,29.4,704.0,27.1,567.0,7.8,146.0,9.2,156.0,1,1,1,1,1
18-B-68,117.0,20.9,731.0,24.8,419.0,6.6,190.0,9.9,226.0,1,1,1,1,1
18-B-84,117.0,22.2,497.0,25.0,469.0,7.0,195.0,7.1,195.0,1,1,1,1,1
18-B-100,117.0,20.9,295.0,23.4,424.0,7.0,231.0,5.5,205.0,1,0,0,1,0
18-B-116,117.0,20.2,367.0,24.9,513.0,7.8,186.0,4.8,197.0,1,1,0,1,0
18-B-132,117.0,22.6,395.0,24.0,342.0,5.7,191.0,6.5,167.0,1,0,0,1,0
18-B-247,90.0,21.0,552.0,20.0,476.0,8.9,213.0,9.9,210.0,1,0,1,1,0
18-B-263,117.0,23.1,497.0,22.2,457.0,6.1,228.0,6.1,214.0,1,0,1,1,0
18-B-279,117.0,21.1,446.0,23.5,513.0,5.4,188.0,7.1,202.0,1,0,0,1,0
18-B-295,117.0,21.7,602.0,23.1,482.0,6.0,187.0,6.9,229.0,1,0,0,1,0
18-B-313,117.0,22.0,419.0,23.8,501.0,7.3,248.0,5.1,222.0,1,0,0,1,0
18-B-469,117.0,19.2,393.0,24.7,454.0,6.3,184.0,5.4,248.0,1,1,0,1,0
18-B-485,117.0,21.0,283.0,23.4,512.0,7.4,212.0,7.8,212.0,1,0,1,1,0
18-B-501,45.0,31.8,776.0,34.4,623.0,11.5,143.0,8.4,186.0,1,1,1,1,1
18-B-517,65.0,25.4,859.0,28.6,468.0,10.5,170.0,6.2,189.0,1,1,1,1,1
18-B-533,65.0,23.9,625.0,29.3,476.0,10.3,144.0,10.8,155.0,1,1,1,1,1
18-B-689,65.0,27.8,790.0,32.5,666.0,9.0,136.0,9.6,157.0,1,1,1,1,1
18-B-705,65.0,22.7,648.0,24.3,513.0,9.6,171.0,10.8,153.0,1,1,1,1,1
18-B-721,65.0,27.5,761.0,29.4,655.0,11.6,164.0,8.5,160.0,1,1,1,1,1
18-B-874,65.0,24.6,685.0,28.2,532.0,7.9,181.0,8.0,177.0,1,1,1,1,1
18-B-890,65.0,18.7,531.0,27.9,486.0,9.1,156.0,9.7,132.0,1,1,1,1,1
18-B-906,117.0,19.35,483.0,22.3,437.0,8.5,231.0,9.0,199.0,1,0,1,1,0
18-B-922,117.0,19.8,325.0,22.5,410.0,6.1,222.0,7.2,230.0,1,0,1,1,0
18-B-938,117.0,19.8,209.0,22.6,413.0,6.3,236.0,6.5,225.0,1,0,1,1,0
18-B-1091,117.0,18.1,355.0,22.1,462.0,6.8,247.4,7.2,191.2,1,0,1,1,0
18-B-1107,117.0,20.3,414.0,22.0,488.0,7.9,217.0,6.6,222.0,1,0,1,1,0
18-B-1123,117.0,20.7,396.0,24.1,442.0,8.2,245.0,8.8,244.0,1,1,1,1,1
18-B-1139,65.0,19.51,494.0,30.3,549.0,12.4,149.0,9.3,197.0,1,1,1,1,1
18-B-1240,117.0,20.2,530.0,22.5,462.0,6.9,237.0,6.9,223.0,1,0,1,1,0
18-B-1256,117.0,18.97,596.0,21.6,458.0,9.0,230.0,9.0,232.0,1,0,1,1,0
18-B-1272,117.0,21.5,479.0,24.0,475.0,8.2,195.0,8.3,236.0,1,0,1,1,0
18-B-1288,117.0,20.4,468.0,24.1,468.0,6.2,213.0,6.7,208.0,1,1,1,1,1
18-B-1304,117.0,21.9,433.0,22.5,492.0,7.3,223.0,6.8,216.0,1,0,1,1,0
18-B-1320,65.0,33.7,796.0,28.2,359.0,9.9,143.0,11.5,135.0,1,1,1,1,1
18-B-1443,117.0,20.8,305.0,22.9,469.0,7.0,224.0,9.0,191.0,1,0,1,1,0
18-B-1459,117.0,20.2,160.3,23.4,450.0,8.1,204.0,8.3,197.0,1,0,1,1,0
18-B-1475,117.0,19.4,435.0,24.3,466.0,8.4,231.0,7.9,218.0,1,1,1,1,1
18-B-1491,117.0,19.3,460.0,23.8,419.0,8.0,143.0,8.1,188.0,1,0,1,1,0
18-B-1874,117.0,20.4,529.0,22.6,428.0,8.4,218.0,7.2,229.0,1,0,1,1,0
18-B-1890,65.0,25.9,652.0,26.3,478.0,12.6,119.0,15.7,118.0,1,1,1,1,1
18-B-1906,65.0,29.9,914.0,35.0,628.0,13.2,240.0,11.2,181.0,1,1,1,1,1
18-B-2092,45.0,33.2,895.0,32.0,752.0,9.2,131.0,14.5,110.0,1,1,1,1,1
18-B-2483,30.0,35.3,850.0,25.5,352.0,14.3,115.0,10.4,204.2,1,1,1,1,1
18-A-710,45.0,20.3,456.0,24.9,423.0,6.6,155.0,7.1,217.0,1,1,1,1,1
18-A-726,45.0,21.5,427.0,28.3,501.0,8.2,232.0,7.3,362.0,1,1,1,1,1
18-A-791,65.0,23.5,1033.0,25.1,455.0,6.5,145.0,9.0,142.0,1,1,1,1,1
19-A-27,65.0,27.9,804.0,33.5,537.0,12.0,153.0,12.0,154.0,1,1,1,1,1
19-A-43,65.0,27.8,790.0,29.7,641.0,12.7,133.0,9.0,145.0,1,1,1,1,1
19-A-59,45.0,31.3,825.0,33.0,532.0,14.6,153.0,13.6,108.0,1,1,1,1,1
19-A-90,65.0,19.36,482.0,23.7,493.0,6.0,269.0,6.5,268.0,1,0,0,1,0
19-A-106,65.0,21.4,624.0,23.1,446.0,5.5,247.0,6.7,292.0,1,0,0,1,0
19-A-173,45.0,25.5,692.0,33.0,680.0,6.8,222.0,6.8,232.0,1,1,1,1,1
19-A-189,45.0,26.2,778.0,34.0,659.0,8.0,247.0,6.9,270.0,1,1,1,1,1
19-A-237,65.0,18.9,471.0,32.2,622.0,7.7,268.0,5.4,258.0,1,1,0,1,0
19-A-253,45.0,27.0,803.0,30.2,534.0,7.9,158.0,6.1,210.0,1,1,1,1,1
19-A-360,30.0,28.9,780.0,27.7,493.0,7.8,165.0,11.3,158.0,1,1,1,1,1
19-A-376,65.0,23.6,424.0,29.7,511.0,15.4,154.0,12.7,176.0,1,1,1,1,1
19-A-416,45.0,20.1,638.0,37.0,554.0,9.2,202.0,7.0,176.0,1,1,1,1,1
19-A-517,65.0,20.0,505.0,21.3,437.0,5.1,272.0,5.2,254.0,1,0,0,1,0
19-A-650,65.0,29.0,784.0,24.1,453.0,6.7,274.0,7.4,228.0,1,1,1,1,1
19-A-666,65.0,18.9,555.0,25.0,477.0,6.1,272.0,6.4,247.0,1,1,1,1,1
19-A-682,65.0,28.7,954.0,30.9,547.0,12.9,185.0,9.7,204.0,1,1,1,1,1
19-A-737,65.0,19.7,490.0,24.7,391.0,6.2,243.0,6.8,252.0,1,1,1,1,1
19-A-753,65.0,19.38,603.0,25.9,430.0,8.4,190.0,6.4,231.0,1,1,1,1,1
19-A-770,65.0,25.0,681.0,26.5,482.0,6.1,200.0,6.1,193.0,1,1,1,1,1
19-A-786,65.0,19.3,504.0,22.9,433.0,6.7,215.0,5.7,191.0,1,0,0,1,0
20-A-47,65.0,17.66,528.0,28.1,569.0,9.9,205.0,6.7,241.0,1,1,1,1,1
20-A-63,65.0,21.1,547.0,22.0,497.0,9.3,197.0,5.6,287.0,1,0,0,1,0
20-A-79,45.0,17.1,363.0,25.9,481.0,6.7,198.0,9.0,197.0,1,1,1,1,1
20-A-134,45.0,19.2,637.0,29.6,487.0,7.9,198.0,7.7,209.0,1,1,1,1,1
20-A-150,65.0,18.5,464.0,24.1,434.0,5.4,290.0,6.0,237.0,1,1,0,1,0
20-A-239,65.0,19.3,497.0,31.3,522.0,10.7,149.0,7.9,190.0,1,1,1,1,1
20-A-313,65.0,24.3,720.0,27.9,503.0,7.2,209.0,6.2,215.0,1,1,1,1,1
20-A-329,65.0,25.1,706.0,32.6,585.0,10.9,144.0,6.6,216.0,1,1,1,1,1
20-A-449,65.0,30.6,754.0,29.5,519.0,8.1,208.0,10.2,148.0,1,1,1,1,1
20-A-465,65.0,28.5,743.0,29.3,498.0,11.0,172.0,9.2,157.0,1,1,1,1,1
20-A-481,65.0,20.4,458.0,31.0,520.0,9.2,177.0,11.5,134.0,1,1,1,1,1
21-A-23,65.0,25.8,685.0,29.8,522.0,13.2,135.0,10.7,140.0,1,1,1,1,1
21-A-128,65.0,18.4,456.0,30.5,531.0,6.7,262.0,6.0,228.0,1,1,0,1,0
21-A-146,65.0,19.9,417.0,28.2,560.0,5.8,272.0,6.0,248.0,1,1,0,1,0
21-A-483,65.0,21.1,625.0,28.1,545.0,12.2,175.0,14.1,185.0,1,1,1,1,1
21-A-499,65.0,21.2,650.0,24.9,474.0,16.0,173.0,14.5,178.0,1,1,0,1,0
21-A-515,65.0,24.0,815.0,30.9,616.0,15.8,186.0,19.8,1920.0,1,1,0,1,0
21-A-589,65.0,23.6,665.0,29.6,499.0,19.7,150.0,20.9,156.0,1,1,0,1,0
22-A-9,65.0,26.8,848.0,34.4,613.0,21.0,208.5,21.1,213.5,1,1,0,1,0
22-A-90,65.0,18.1,595.0,28.3,517.0,10.5,189.0,9.9,188.0,1,1,1,1,1
22-A-94,65.0,26.8,821.0,30.0,578.0,15.7,194.0,17.2,198.0,1,1,0,1,0