Folder: polypropylene_tensile_analysis/Resources/Clean Data

Note: README.md
# polypropylene_tensile_analysis
Bootcamp Final Project

## Overview

An extrusion company creates a crosslinked blend of polypropylene and polyethylene using a water-activated catalyst. The cure process takes 10 days, and consists of taking moistened extrudate and placing it in an industrial oven for a period of 10 days. The degree of crosslinking is determined by evaluating the tensile strength and elongation of a material sample. QA acceptance criteria is based on the tensile and elongation results after the curing process.

The tensile and elongation results tend to have considerable variation. This analysis is to use supervised machine learning to identify contributing features, and identify high-risk scenarios for quality failures.

Some factors being examined include the processing equipment, conditions, and operators, the weather conditions for the cure period (the ovens are exposed to the environment), the month of production, and the test results prior to moisture curing.

##

File: final_tensile.csv
date_code,thickness,amb_tensile_pre_cure,amb_elongation_pre_cure,amb_elongation_result,amb_tensile_result,hot_tensile_result,hot_elongation_result,overall_result
17-B-1045,65.0,23.9,610.0,1,1,1,1,1
17-B-1052,65.0,19.6,456.0,1,1,1,1,1
17-B-1060,65.0,24.2,632.0,1,1,1,1,1
17-B-1067,117.0,19.7,405.0,1,0,1,1,0
17-B-1074,117.0,19.8,396.0,1,0,1,1,0
17-B-1085,117.0,20.4,362.0,1,0,1,1,0
17-B-1092,117.0,19.9,486.0,1,0,0,1,0
17-B-1099,117.0,21.0,484.0,1,0,1,1,0
17-B-1113,117.0,21.5,381.0,1,1,1,1,1
17-B-1120,117.0,21.6,458.0,1,0,1,1,0
17-B-1194,65.0,24.3,611.0,1,1,1,1,1
17-B-1201,65.0,24.8,696.0,1,1,1,1,1
17-B-1209,65.0,23.2,791.0,1,1,1,1,1
17-B-1217,65.0,24.1,878.0,1,1,1,1,1
17-B-1226,117.0,19.6,342.0,1,0,1,1,0
17-B-1239,117.0,20.2,406.0,1,0,0,1,0
17-B-1249,117.0,20.4,464.0,1,0,1,1,0
17-B-1264,117.0,21.9,491.0,1,0,0,1,0
17-B-1272,117.0,20.8,375.0,1,1,0,1,0
17-B-1279,117.0,20.9,482.0,1,1,0,1,0
17-B-1387,65.0,27.4,707.0,1,1,1,1,1
17-B-1398,65.0,26.9,652.0,1,1,1,1,1
17-B-1408,65.0,26.6,737.0,1,1,1,1,1
17-B-1419,65.0,29.3,700.0,1,1,1,1,1
17-B-1427,117.0,19.5,491.0,1,0,1,1,0
17-B-1434,117.0,19.7,446.0,1,1,1,1,1
17-B-1441,117.0,19.9,543.0,1,0,1,1,0
17-B-1448,117.0,21.1,354.0,1,1,0,1,0
17-B-1455,117.0,19.8,385.0,1,1,1,1,1
17-B-1464,117.0,21.6,507.0,1,1,1,1,1
17-B-1475,117.0,21.6,484.0,1,1,1,1,1
17-B-1484,117.0,20.8,471.0,1,1,1,1,1
17-B-1576,117.0,19.8,471.0,0,0,1,1,0
17-B-1583,117.0,20.8,534.0,1,1,0,1,0
17-B-1590,117.0,19.12,341.0,1,1,0,1,0
17-B-1597,117.0,21.3,441.0,1,1,1,1,1
17-B-1604,117.0,20.9,444.0,1,0,0,1,0
17-B-1611,117.0,21.2,523.0,1,1,0,1,0
17-B-1621,117.0,22.3,518.0,1,0,0,1,0
17-B-1630,117.0,21.0,515.0,1,0,0,1,0
17-B-1637,65.0,26.0,678.0,1,1,1,1,1
17-B-1644,45.0,25.5,586.0,1,1,1,1,1
17-B-1761,65.0,27.0,636.0,1,1,1,1,1
17-B-1817,65.0,26.3,696.0,1,1,1,1,1
17-B-1825,65.0,25.3,673.0,1,1,1,1,1
17-B-1832,65.0,25.0,701.0,1,1,1,1,1
17-B-1839,65.0,25.5,670.0,1,1,1,1,1
17-B-1853,65.0,24.4,972.0,1,1,1,1,1
17-B-1881,117.0,20.4,533.0,1,0,1,1,0
17-B-1888,117.0,20.5,521.0,1,1,1,1,1
17-B-1900,117.0,21.4,296.0,1,1,1,1,1
17-B-1911,117.0,21.5,381.0,1,1,0,1,0
17-B-1918,117.0,20.3,609.0,1,1,1,1,1
17-B-1925,117.0,22.7,274.0,1,1,1,1,1
17-B-1933,117.0,21.6,566.0,1,0,0,1,0
17-B-2132,65.0,23.7,575.0,1,1,1,1,1
17-B-2142,65.0,21.3,753.0,1,1,1,1,1
17-B-2190,117.0,20.9,533.0,1,0,0,1,0
17-B-2197,117.0,20.1,701.0,1,1,0,1,0
17-B-2204,117.0,19.2,344.0,1,1,1,1,1
17-B-2211,117.0,20.7,453.0,1,1,0,1,0
17-B-2218,117.0,20.6,619.0,1,0,1,1,0
17-B-2225,117.0,21.0,512.0,1,1,1,1,1
17-B-2234,117.0,20.6,387.0,1,0,1,1,0
17-B-2243,117.0,20.1,412.0,1,0,0,1,0
17-B-2270,65.0,24.8,634.0,1,1,1,1,1
17-B-2277,65.0,23.3,649.0,1,1,1,1,1
17-B-2374,117.0,20.3,336.0,1,1,1,1,1
17-B-2381,117.0,21.1,338.0,1,1,0,1,0
17-B-2388,117.0,19.1,374.0,1,1,0,1,0
17-B-2396,117.0,21.9,390.0,1,1,0,1,0
17-B-2406,117.0,19.9,395.0,1,1,0,1,0
17-B-2414,117.0,20.8,475.0,1,1,1,1,1
17-B-2421,117.0,21.4,544.0,1,1,1,1,1
17-B-2428,117.0,21.1,438.0,1,1,0,1,0
17-B-2445,45.0,30.1,867.0,1,1,1,1,1
17-B-2510,117.0,20.2,532.0,1,1,1,1,1
17-B-2519,117.0,22.5,532.0,1,1,1,1,1
17-B-2526,117.0,21.2,508.0,1,1,1,1,1
17-B-2533,117.0,21.7,550.0,1,0,0,1,0
17-B-2540,117.0,22.1,569.0,1,0,0,1,0
17-B-2547,117.0,20.9,328.0,1,0,0,1,0
17-B-2554,117.0,17.8,336.0,1,0,1,1,0
17-B-2562,117.0,20.8,516.0,1,1,0,1,0
17-B-2574,72.0,30.0,747.0,1,1,1,1,1
17-B-2593,65.0,31.1,849.0,1,1,1,1,1
17-B-2797,117.0,21.0,572.0,1,1,0,1,0
17-B-2804,117.0,22.2,377.0,1,1,0,1,0
17-B-2811,117.0,19.8,428.0,1,0,1,1,0
17-B-2818,117.0,19.7,386.0,1,0,1,1,0
17-B-2825,117.0,20.7,263.0,1,0,1,1,0
17-B-2832,117.0,21.6,377.0,1,1,0,1,0
17-B-2839,117.0,22.0,427.0,1,0,1,1,0
17-B-2846,117.0,21.5,316.0,1,0,0,1,0
17-B-2853,117.0,21.4,430.0,1,1,1,1,1
17-B-2860,117.0,22.5,394.0,1,1,1,1,1
17-B-2867,117.0,21.4,434.0,1,1,0,1,0
17-B-2874,72.0,24.3,557.0,1,1,1,1,1
17-B-2881,72.0,21.5,411.0,1,1,1,1,1
17-B-2888,72.0,20.9,531.0,1,0,1,1,0
17-B-2896,65.0,29.9,690.0,1,1,1,1,1
17-B-2973,117.0,20.8,437.0,1,0,0,1,0
17-B-2980,117.0,21.0,369.0,0,1,0,1,0
17-B-2987,117.0,19.8,482.0,1,0,0,1,0
17-B-2994,117.0,21.0,557.0,1,0,1,1,0
17-B-3001,117.0,20.3,518.0,1,0,0,1,0
17-B-3008,117.0,22.0,488.0,1,1,1,1,1
17-B-3015,117.0,19.9,283.0,1,1,0,1,0
17-B-3022,117.0,21.7,559.0,1,1,1,1,1
17-B-3029,117.0,20.7,471.0,1,1,1,1,1
17-B-3036,117.0,21.0,534.0,1,1,1,1,1
17-B-3043,117.0,21.4,600.0,1,1,1,1,1
18-B-17,117.0,20.8,627.0,1,1,0,1,0
18-B-24,117.0,21.7,433.0,1,1,0,1,0
18-B-31,117.0,21.8,384.0,1,0,0,1,0
18-B-38,117.0,20.9,317.0,1,0,1,1,0
18-B-50,72.0,26.8,638.0,1,1,1,1,1
18-B-58,72.0,29.1,744.0,1,1,1,1,1
18-B-65,117.0,21.3,588.0,1,1,1,1,1
18-B-72,117.0,21.7,614.0,1,1,0,1,0
18-B-79,117.0,21.2,396.0,1,0,1,1,0
18-B-86,117.0,20.6,301.0,1,1,0,1,0
18-B-93,117.0,21.5,109.0,1,0,0,1,0
18-B-100,117.0,20.9,295.0,1,0,0,1,0
18-B-107,117.0,21.3,560.0,1,0,1,1,0
18-B-114,117.0,20.9,392.0,1,1,0,1,0
18-B-121,117.0,20.4,476.0,1,0,1,1,0
18-B-128,117.0,20.3,407.0,1,0,1,1,0
18-B-135,117.0,22.7,295.0,1,0,1,1,0
18-B-242,90.0,21.2,426.0,1,0,1,1,0
18-B-249,90.0,21.4,695.0,1,0,1,1,0
18-B-256,117.0,21.0,453.0,1,0,1,1,0
18-B-263,117.0,23.1,497.0,1,0,1,1,0
18-B-270,117.0,20.8,361.0,1,0,1,1,0
18-B-277,117.0,21.1,496.0,1,0,1,1,0
18-B-284,117.0,21.0,440.0,1,0,1,1,0
18-B-291,117.0,20.1,454.0,1,1,1,1,1
18-B-298,117.0,21.7,414.0,1,1,1,1,1
18-B-307,117.0,21.4,600.0,1,0,1,1,0
18-B-314,117.0,22.0,384.0,1,1,1,1,1
18-B-321,117.0,20.2,431.0,1,0,0,1,0
18-B-468,117.0,19.1,481.0,1,1,1,1,1
18-B-475,117.0,19.7,425.0,1,0,1,1,0
18-B-482,117.0,21.1,444.0,1,0,1,1,0
18-B-489,117.0,19.5,325.0,1,0,0,1,0
18-B-496,45.0,24.0,651.0,1,1,1,1,1
18-B-517,65.0,25.4,859.0,1,1,1,1,1
18-B-524,65.0,27.7,898.0,1,1,1,1,1
18-B-531,65.0,28.1,746.0,1,1,1,1,1
18-B-682,65.0,28.9,739.0,1,1,1,1,1
18-B-696,65.0,18.8,674.0,1,0,1,1,0
18-B-707,65.0,28.0,787.0,1,1,1,1,1
18-B-716,65.0,28.3,735.0,1,1,1,1,1
18-B-725,65.0,26.8,753.0,1,1,1,1,1
18-B-870,65.0,20.1,575.0,1,1,1,1,1
18-B-877,65.0,25.6,729.0,1,1,1,1,1
18-B-884,65.0,19.65,552.0,1,0,0,1,0
18-B-891,65.0,20.0,521.0,1,1,1,1,1
18-B-898,117.0,19.4,436.0,1,0,1,1,0
18-B-905,117.0,19.52,434.0,1,0,1,1,0
18-B-913,117.0,19.35,363.0,1,0,0,1,0
18-B-920,117.0,19.3,177.0,1,0,1,1,0
18-B-930,117.0,19.9,324.0,1,0,1,1,0
18-B-939,117.0,19.9,326.0,1,0,1,1,0
18-B-1084,117.0,18.28,364.0,1,0,0,1,0
18-B-1091,117.0,18.1,355.0,1,0,1,1,0
18-B-1100,117.0,19.61,311.0,1,1,1,1,1
18-B-1107,117.0,20.3,414.0,1,0,1,1,0
18-B-1114,117.0,19.44,335.0,1,0,1,1,0
18-B-1121,117.0,21.5,490.0,1,1,1,1,1
18-B-1128,117.0,19.9,332.0,1,1,1,1,1
18-B-1135,65.0,28.1,747.0,1,1,1,1,1
18-B-1145,65.0,31.1,791.0,1,1,1,1,1
18-B-1238,117.0,18.4,501.0,1,0,0,1,0
18-B-1245,117.0,20.0,467.0,1,0,1,1,0
18-B-1252,117.0,19.9,328.0,1,0,1,1,0
18-B-1260,117.0,19.98,474.0,1,0,1,1,0
18-B-1268,117.0,20.6,493.0,1,1,1,1,1
18-B-1275,117.0,20.5,474.0,1,1,1,1,1
18-B-1283,117.0,18.9,425.0,1,0,1,1,0
18-B-1290,117.0,20.5,498.0,1,0,1,1,0
18-B-1297,117.0,19.9,429.0,1,0,1,1,0
18-B-1304,117.0,21.9,433.0,1,0,1,1,0
18-B-1311,117.0,19.5,547.0,1,0,1,1,0
18-B-1323,65.0,27.4,648.0,1,1,1,1,1
18-B-1331,65.0,29.6,770.0,1,1,1,1,1
18-B-1445,117.0,19.8,327.0,1,0,1,1,0
18-B-1452,117.0,20.2,506.0,1,0,1,1,0
18-B-1459,117.0,20.2,160.3,1,0,1,1,0
18-B-1466,117.0,20.3,480.0,1,0,1,1,0
18-B-1473,117.0,18.7,323.0,1,0,1,1,0
18-B-1480,117.0,20.1,469.0,1,0,1,1,0
18-B-1487,117.0,19.82,519.0,1,0,1,1,0
18-B-1494,117.0,21.2,530.0,1,0,1,1,0
18-B-1501,117.0,19.31,416.0,1,0,1,1,0
18-B-1875,117.0,20.0,493.0,1,0,1,1,0
18-B-1882,65.0,26.4,853.0,1,1,1,1,1
18-B-1891,65.0,27.4,657.0,1,1,1,1,1
18-B-1910,68.0,25.0,629.0,1,1,1,1,1
18-B-1917,65.0,30.6,744.0,1,1,1,1,1
18-A-699,45.0,20.6,525.0,1,1,1,1,1
18-A-707,45.0,22.7,495.0,1,1,1,1,1
18-A-715,45.0,20.7,381.0,1,1,1,1,1
18-A-723,45.0,21.6,609.0,1,1,1,1,1
18-A-783,63.0,18.92,466.0,1,1,1,1,1
18-A-790,65.0,23.6,572.0,1,1,1,1,1
18-A-798,65.0,24.2,632.0,1,1,1,1,1
19-A-25,65.0,28.7,770.0,1,1,1,1,1
19-A-33,65.0,24.9,687.0,1,1,1,1,1
19-A-46,65.0,24.4,659.0,1,1,1,1,1
19-A-84,65.0,19.89,514.0,1,1,0,1,0
19-A-91,65.0,20.1,573.0,1,1,0,1,0
19-A-98,65.0,20.0,531.0,1,0,0,1,0
19-A-105,65.0,25.0,788.0,1,0,0,1,0
19-A-112,65.0,19.12,545.0,1,1,0,1,0
19-A-120,65.0,19.73,469.0,1,1,0,1,0
19-A-187,45.0,24.1,670.0,1,1,1,1,1
19-A-233,65.0,20.0,496.0,1,1,1,1,1
19-A-240,65.0,20.6,568.0,1,1,1,1,1
19-A-247,65.0,19.17,561.0,1,0,0,1,0
19-A-254,45.0,20.8,568.0,1,1,1,1,1
19-A-261,45.0,22.7,659.0,1,1,1,1,1
19-A-359,30.0,20.2,601.0,1,1,1,1,1
19-A-366,65.0,19.6,422.0,1,1,1,1,1
19-A-374,65.0,24.4,453.0,1,1,1,1,1
19-A-409,65.0,17.5,576.0,1,1,1,1,1
19-A-418,45.0,19.04,537.0,1,1,1,1,1
19-A-511,65.0,20.1,448.0,1,0,0,1,0
19-A-518,65.0,18.7,583.0,1,0,0,1,0
19-A-525,65.0,20.0,476.0,1,0,0,1,0
19-A-532,65.0,19.4,595.0,1,0,0,1,0
19-A-656,65.0,27.8,694.0,1,1,1,1,1
19-A-664,65.0,18.8,506.0,1,1,1,1,1
19-A-673,65.0,25.3,891.0,1,1,1,1,1
19-A-687,65.0,24.6,713.0,1,1,1,1,1
19-A-733,65.0,19.8,539.0,1,0,1,1,0
19-A-740,65.0,19.1,461.0,1,1,0,1,0
19-A-747,65.0,20.5,680.0,1,1,0,1,0
19-A-754,65.0,18.66,585.0,1,1,1,1,1
19-A-762,65.0,19.59,700.0,1,0,0,1,0
19-A-769,65.0,21.1,543.0,1,1,1,1,1
19-A-776,65.0,20.2,516.0,1,0,0,1,0
19-A-783,65.0,26.4,735.0,1,0,0,1,0
20-A-33,65.0,20.8,919.0,1,1,1,1,1
20-A-42,65.0,18.6,494.0,1,0,1,1,0
20-A-50,65.0,27.6,764.0,1,0,0,1,0
20-A-57,65.0,18.6,503.0,1,0,1,1,0
20-A-66,65.0,19.1,531.0,1,0,0,1,0
20-A-73,65.0,23.6,703.0,1,1,0,1,0
20-A-81,45.0,20.6,615.0,1,0,1,1,0
20-A-128,45.0,24.6,744.0,1,1,1,1,1
20-A-135,45.0,19.4,584.0,1,1,1,1,1
20-A-142,65.0,17.7,525.0,1,1,0,1,0
20-A-149,65.0,19.3,545.0,1,1,0,1,0
20-A-157,65.0,18.2,524.0,1,0,0,1,0
20-A-236,65.0,19.3,476.0,1,0,0,1,0
20-A-300,65.0,22.0,623.0,1,1,1,1,1
20-A-310,65.0,18.44,506.0,1,1,1,1,1
20-A-318,65.0,18.9,534.0,1,1,0,1,0
20-A-325,65.0,20.5,455.0,1,1,1,1,1
20-A-333,65.0,24.4,682.0,1,1,1,1,1
20-A-444,65.0,28.3,714.0,1,1,1,1,1
20-A-451,65.0,30.8,766.0,1,1,1,1,1
20-A-458,65.0,29.3,740.0,1,1,1,1,1
20-A-466,65.0,26.8,700.0,1,1,1,1,1
20-A-474,65.0,19.2,461.0,1,1,1,1,1
20-A-481,65.0,20.4,458.0,1,1,1,1,1
21-A-14,65.0,29.2,729.0,1,1,1,1,1
21-A-21,65.0,24.7,656.0,1,1,1,1,1
21-A-70,65.0,19.3,538.0,1,1,1,1,1
21-A-126,65.0,18.2,464.0,1,1,1,1,1
21-A-133,65.0,18.2,413.0,1,1,0,1,0
21-A-140,65.0,19.3,439.0,1,1,0,1,0
21-A-149,65.0,19.6,429.0,1,1,0,1,0
21-A-157,65.0,19.0,444.0,1,1,0,1,0
21-A-586,65.0,18.7,473.0,1,1,1,1,1
22-A-86,65.0,18.9,632.0,1,1,1,1,1
22-A-91,65.0,27.7,740.0,1,1,1,1,1